language,ISO_code,thisN,thisTrialN,thisRepN,instr_msg_EN,instr_pics,instr_msg_ES,instr_msg_FR,images_sizeW,images_sizeH,hljt_images,hljt_side,hljt_view,hljt_angle,hljt_direction,hljt_correct_both,hljt_correct_one,pract_hljt_response.keys,pract_hljt_response.corr,pract_hljt_response.rt,pract_hljt_response.duration,block_msg_EN,block_pause_msg_EN,block_msg_ES,block_pause_msg_ES,block_msg_FR,block_pause_msg_FR,test_hljt_response.keys,test_hljt_response.corr,test_hljt_response.rt,test_hljt_response.duration,language_loop.thisRepN,language_loop.thisTrialN,language_loop.thisN,language_loop.thisIndex,instructions_loop.thisRepN,instructions_loop.thisTrialN,instructions_loop.thisN,instructions_loop.thisIndex,pract_block.thisRepN,pract_block.thisTrialN,pract_block.thisN,pract_block.thisIndex,pract_loop.thisRepN,pract_loop.thisTrialN,pract_loop.thisN,pract_loop.thisIndex,test_block.thisRepN,test_block.thisTrialN,test_block.thisN,test_block.thisIndex,test_trial_loop.thisRepN,test_trial_loop.thisTrialN,test_trial_loop.thisN,test_trial_loop.thisIndex,thisRow.t,notes,language_code,start_time,Welcome.started,Welcome.stopped,ITI,pract_hljt_image.started,pract_hljt_response.started,pract_loop.pract_hljt_response.keys,pract_loop.pract_hljt_response.corr,pract_loop.pract_hljt_response.rt,pract_loop.pract_hljt_response.duration,block_welcome.started,block_welcome.stopped,test_trial.started,test_square.started,test_hljt_image.started,test_hljt_response.started,square_left_3.started,square_right_3.started,test_trial.stopped,test_trial_loop.test_hljt_response.keys,test_trial_loop.test_hljt_response.corr,test_trial_loop.test_hljt_response.rt,test_trial_loop.test_hljt_response.duration,test_feedback.started,test_feedback.stopped,block_pause.started,block_pause.stopped,end_time,completion_time,Goodbye.started,Goodbye.stopped,participant,session,language,response_mode,practice_block,n_angles,hand_views,n_reps,feedback,date,expName,psychopyVersion,frameRate,expStart,
English,FR,2,2,0,,,,,,,,,,,,,,,,,,,,,,,,,,,,0,2,2,2,,,,,,,,,,,,,,,,,,,,,0.0748182999996061,,EN,,,,,,,,,,,,,,,,,,,,,,,,,,,,,,,,Example,1,English,Both hands,Yes,4 (increments of 90º),Palmar and Dorsal,4,0.3,2025-07-02_10h24.34.345,HLJT_local,2024.2.1,59.66291645453965,2025-07-02 10h25.15.071038 +0200,
English,,,,,,,,,,,,,,,,,,,,,,,,,,,,,,,,,,,,,,,,,,,,,,,,,,,,,,,,,,,0.02028379999956087,0.06785279999985505,1.2766707000000679,,,,,,,,,,,,,,,,,,,,,,,,,,,,,Example,1,English,Both hands,Yes,4 (increments of 90º),Palmar and Dorsal,4,0.3,2025-07-02_10h24.34.345,HLJT_local,2024.2.1,59.66291645453965,2025-07-02 10h25.15.071038 +0200,
English,,0,0,0,"After each image, you will receive a short feedback on your response:

If you respond correctly, the corresponding box will turn green

If you respond incorrectly, the corresponding box will turn red

Remember that your goal is to respond as accurately and fast as possible",hljt_instr_images/instr_pic3.jpg,"Tras cada imagen, recibirás un feedback corto sobre tu respuesta:

Si respondes correctamente, la caja correspondiente se volverá verde

Si respondes incorrectamente, la caja correspondiente se volverá roja

Recuerda que tu objetivo es responder tan precisa y rápidamente como puedas","Après chaque image, vous recevrez un bref commentaire sur votre réponse :

Si vous répondez correctement, la case correspondante devient verte.

Si votre réponse est incorrecte, la case correspondante devient rouge.

N'oubliez pas que votre objectif est de répondre le plus précisément et le plus rapidement possible.
",0.6,0.5,hljt_images/left_dorsal.png,left,dorsal,180,down,s,g,l,0,0.7097462000001542,None,,,,,,,,,,,,,,,0,2,2,2,0,0,0,0,0,0,0,14,,,,,,,,,7.037927100000161,,,,,,0.7220957491743982,7.772977300000093,7.772977300000093,l,0,0.7097462000001542,None,,,,,,,,,,,,,,,,,,,,,,Example,1,English,Both hands,Yes,4 (increments of 90º),Palmar and Dorsal,4,0.3,2025-07-02_10h24.34.345,HLJT_local,2024.2.1,59.66291645453965,2025-07-02 10h25.15.071038 +0200,
English,,1,1,0,,,,,,,hljt_images/left_dorsal.png,left,dorsal,270,medial,s,g,s,1,0.4031205000001137,None,,,,,,,,,,,,,,,,,,,0,0,0,0,0,1,1,15,,,,,,,,,8.804698300000382,,,,,,0.7945621250345394,9.591201999999612,9.591201999999612,s,1,0.4031205000001137,None,,,,,,,,,,,,,,,,,,,,,,Example,1,English,Both hands,Yes,4 (increments of 90º),Palmar and Dorsal,4,0.3,2025-07-02_10h24.34.345,HLJT_local,2024.2.1,59.66291645453965,2025-07-02 10h25.15.071038 +0200,
English,,2,2,0,,,,,,,hljt_images/right_palmar.png,right,palmar,90,lateral,l,h,s,0,0.5649256000006062,None,,,,,,,,,,,,,,,,,,,0,0,0,0,0,2,2,1,,,,,,,,,10.321438400000261,,,,,,0.6892549968421943,11.037687899999582,11.037687899999582,s,0,0.5649256000006062,None,,,,,,,,,,,,,,,,,,,,,,Example,1,English,Both hands,Yes,4 (increments of 90º),Palmar and Dorsal,4,0.3,2025-07-02_10h24.34.345,HLJT_local,2024.2.1,59.66291645453965,2025-07-02 10h25.15.071038 +0200,
English,,3,3,0,,,,,,,hljt_images/left_palmar.png,left,palmar,180,down,s,g,l,0,0.63740609999968,None,,,,,,,,,,,,,,,,,,,0,0,0,0,0,3,3,10,,,,,,,,,11.904366400000072,,,,,,0.7787193008797678,12.694302900000366,12.694302900000366,l,0,0.63740609999968,None,,,,,,,,,,,,,,,,,,,,,,Example,1,English,Both hands,Yes,4 (increments of 90º),Palmar and Dorsal,4,0.3,2025-07-02_10h24.34.345,HLJT_local,2024.2.1,59.66291645453965,2025-07-02 10h25.15.071038 +0200,
English,,4,4,0,,,,,,,hljt_images/left_dorsal.png,left,dorsal,0,up,s,g,s,1,0.5845734000004086,None,,,,,,,,,,,,,,,,,,,0,0,0,0,0,4,4,12,,,,,,,,,13.654340600000069,,,,,,0.7035939397819237,14.362333500000204,14.362333500000204,s,1,0.5845734000004086,None,,,,,,,,,,,,,,,,,,,,,,Example,1,English,Both hands,Yes,4 (increments of 90º),Palmar and Dorsal,4,0.3,2025-07-02_10h24.34.345,HLJT_local,2024.2.1,59.66291645453965,2025-07-02 10h25.15.071038 +0200,
English,,5,5,0,,,,,,,hljt_images/right_palmar.png,right,palmar,270,medial,l,h,l,1,0.6959188999999242,None,,,,,,,,,,,,,,,,,,,0,0,0,0,0,5,5,3,,,,,,,,,15.271818999999596,,,,,,0.7398395783408032,16.01154630000019,16.01154630000019,l,1,0.6959188999999242,None,,,,,,,,,,,,,,,,,,,,,,Example,1,English,Both hands,Yes,4 (increments of 90º),Palmar and Dorsal,4,0.3,2025-07-02_10h24.34.345,HLJT_local,2024.2.1,59.66291645453965,2025-07-02 10h25.15.071038 +0200,
English,,6,6,0,,,,,,,hljt_images/left_palmar.png,left,palmar,0,up,s,g,s,1,0.6821714999996402,None,,,,,,,,,,,,,,,,,,,0,0,0,0,0,6,6,8,,,,,,,,,17.03807500000039,,,,,,0.9621678458908962,17.992543999999725,17.992543999999725,s,1,0.6821714999996402,None,,,,,,,,,,,,,,,,,,,,,,Example,1,English,Both hands,Yes,4 (increments of 90º),Palmar and Dorsal,4,0.3,2025-07-02_10h24.34.345,HLJT_local,2024.2.1,59.66291645453965,2025-07-02 10h25.15.071038 +0200,
English,,7,7,0,,,,,,,hljt_images/left_dorsal.png,left,dorsal,90,lateral,s,g,s,1,0.6484131999995952,None,,,,,,,,,,,,,,,,,,,0,0,0,0,0,7,7,13,,,,,,,,,19.005191600000217,,,,,,0.6933647689142071,19.698687199999767,19.698687199999767,s,1,0.6484131999995952,None,,,,,,,,,,,,,,,,,,,,,,Example,1,English,Both hands,Yes,4 (increments of 90º),Palmar and Dorsal,4,0.3,2025-07-02_10h24.34.345,HLJT_local,2024.2.1,59.66291645453965,2025-07-02 10h25.15.071038 +0200,
English,,8,8,0,,,,,,,hljt_images/right_dorsal.png,right,dorsal,180,down,l,h,l,1,1.714074399999845,None,,,,,,,,,,,,,,,,,,,0,0,0,0,0,8,8,6,,,,,,,,,20.67172589999973,,,,,,0.8220811772782528,21.497693199999958,21.497693199999958,l,1,1.714074399999845,None,,,,,,,,,,,,,,,,,,,,,,Example,1,English,Both hands,Yes,4 (increments of 90º),Palmar and Dorsal,4,0.3,2025-07-02_10h24.34.345,HLJT_local,2024.2.1,59.66291645453965,2025-07-02 10h25.15.071038 +0200,
English,,9,9,0,,,,,,,hljt_images/right_dorsal.png,right,dorsal,270,lateral,l,h,l,1,0.6884305000003224,None,,,,,,,,,,,,,,,,,,,0,0,0,0,0,9,9,7,,,,,,,,,23.53856259999975,,,,,,0.8392780842933065,24.37765500000023,24.37765500000023,l,1,0.6884305000003224,None,,,,,,,,,,,,,,,,,,,,,,Example,1,English,Both hands,Yes,4 (increments of 90º),Palmar and Dorsal,4,0.3,2025-07-02_10h24.34.345,HLJT_local,2024.2.1,59.66291645453965,2025-07-02 10h25.15.071038 +0200,
English,,10,10,0,,,,,,,hljt_images/right_dorsal.png,right,dorsal,90,medial,l,h,l,1,0.6044490000003861,None,,,,,,,,,,,,,,,,,,,0,0,0,0,0,10,10,5,,,,,,,,,25.38818160000028,,,,,,0.7230398252830887,26.110425400000167,26.110425400000167,l,1,0.6044490000003861,None,,,,,,,,,,,,,,,,,,,,,,Example,1,English,Both hands,Yes,4 (increments of 90º),Palmar and Dorsal,4,0.3,2025-07-02_10h24.34.345,HLJT_local,2024.2.1,59.66291645453965,2025-07-02 10h25.15.071038 +0200,
English,,11,11,0,,,,,,,hljt_images/left_palmar.png,left,palmar,90,medial,s,g,s,1,0.7686968000007255,None,,,,,,,,,,,,,,,,,,,0,0,0,0,0,11,11,9,,,,,,,,,27.03799059999983,,,,,,0.8764356952762893,27.913730999999643,27.913730999999643,s,1,0.7686968000007255,None,,,,,,,,,,,,,,,,,,,,,,Example,1,English,Both hands,Yes,4 (increments of 90º),Palmar and Dorsal,4,0.3,2025-07-02_10h24.34.345,HLJT_local,2024.2.1,59.66291645453965,2025-07-02 10h25.15.071038 +0200,
English,,12,12,0,,,,,,,hljt_images/right_dorsal.png,right,dorsal,0,up,l,h,l,1,0.47484459999941464,None,,,,,,,,,,,,,,,,,,,0,0,0,0,0,12,12,4,,,,,,,,,29.004233999999997,,,,,,0.7140023716733255,29.712445500000285,29.712445500000285,l,1,0.47484459999941464,None,,,,,,,,,,,,,,,,,,,,,,Example,1,English,Both hands,Yes,4 (increments of 90º),Palmar and Dorsal,4,0.3,2025-07-02_10h24.34.345,HLJT_local,2024.2.1,59.66291645453965,2025-07-02 10h25.15.071038 +0200,
English,,13,13,0,,,,,,,hljt_images/right_palmar.png,right,palmar,0,up,l,h,s,0,0.4368540999994366,None,,,,,,,,,,,,,,,,,,,0,0,0,0,0,13,13,0,,,,,,,,,30.505321800000274,,,,,,0.8072681443775559,31.30958709999959,31.30958709999959,s,0,0.4368540999994366,None,,,,,,,,,,,,,,,,,,,,,,Example,1,English,Both hands,Yes,4 (increments of 90º),Palmar and Dorsal,4,0.3,2025-07-02_10h24.34.345,HLJT_local,2024.2.1,59.66291645453965,2025-07-02 10h25.15.071038 +0200,
English,,14,14,0,,,,,,,hljt_images/right_palmar.png,right,palmar,180,down,l,h,l,1,0.5813240999996196,None,,,,,,,,,,,,,,,,,,,0,0,0,0,0,14,14,2,,,,,,,,,32.07179410000026,,,,,,0.8736484369198152,32.94199279999975,32.94199279999975,l,1,0.5813240999996196,None,,,,,,,,,,,,,,,,,,,,,,Example,1,English,Both hands,Yes,4 (increments of 90º),Palmar and Dorsal,4,0.3,2025-07-02_10h24.34.345,HLJT_local,2024.2.1,59.66291645453965,2025-07-02 10h25.15.071038 +0200,
English,,15,15,0,,,,,,,hljt_images/left_palmar.png,left,palmar,270,lateral,s,g,s,1,0.932258499999989,None,,,,,,,,,,,,,,,,,,,0,0,0,0,0,15,15,11,,,,,,,,,33.855154400000174,,,,,,0.8660925443951484,34.72681190000003,34.72681190000003,s,1,0.932258499999989,None,,,,,,,,,,,,,,,,,,,,,,Example,1,English,Both hands,Yes,4 (increments of 90º),Palmar and Dorsal,4,0.3,2025-07-02_10h24.34.345,HLJT_local,2024.2.1,59.66291645453965,2025-07-02 10h25.15.071038 +0200,
English,,0,0,0,,,,,,,hljt_images/left_palmar.png,left,palmar,0,up,s,g,,,,,"Now you are going to do the test blocks

There are 4 blocks, with a break between them",You have finished the first block,"Ahora vas a realizar los bloques de prueba

Hay 4 bloques, con un descanso entre ellos",Has finalizado el primer bloque,"Vous allez maintenant faire les blocs de test

Il y a 4 blocs, avec une pause entre les deux",Vous avez terminé le premier bloc,s,1,0.709669799999574,None,,,,,,,,,,,,,,,,,0,0,0,0,0,0,0,8,44.43716070000028,,,,,,0.7776530836460379,,,,,,,36.008395400000154,41.42418269999962,45.21240399999988,45.2203399,45.2203399,45.2203399,45.2203399,45.2203399,45.939864599999964,s,1,0.709669799999574,None,45.96402719999969,46.239246600000115,,,,,,,Example,1,English,Both hands,Yes,4 (increments of 90º),Palmar and Dorsal,4,0.3,2025-07-02_10h24.34.345,HLJT_local,2024.2.1,59.66291645453965,2025-07-02 10h25.15.071038 +0200,
English,,1,1,0,,,,,,,hljt_images/left_dorsal.png,left,dorsal,180,down,s,g,,,,,"Now you are going to do the test blocks

There are 4 blocks, with a break between them",You have finished the first block,"Ahora vas a realizar los bloques de prueba

Hay 4 bloques, con un descanso entre ellos",Has finalizado el primer bloque,"Vous allez maintenant faire les blocs de test

Il y a 4 blocs, avec une pause entre les deux",Vous avez terminé le premier bloc,l,0,0.5444263999997929,None,,,,,,,,,,,,,,,,,0,0,0,0,0,1,1,14,46.254499399999986,,,,,,0.7521870469600711,,,,,,,,,47.01162589999967,47.025844400000096,47.025844400000096,47.025844400000096,47.025844400000096,47.025844400000096,47.57394649999969,l,0,0.5444263999997929,None,47.58780430000024,47.87200740000026,,,,,,,Example,1,English,Both hands,Yes,4 (increments of 90º),Palmar and Dorsal,4,0.3,2025-07-02_10h24.34.345,HLJT_local,2024.2.1,59.66291645453965,2025-07-02 10h25.15.071038 +0200,
English,,2,2,0,,,,,,,hljt_images/right_dorsal.png,right,dorsal,90,medial,l,h,,,,,"Now you are going to do the test blocks

There are 4 blocks, with a break between them",You have finished the first block,"Ahora vas a realizar los bloques de prueba

Hay 4 bloques, con un descanso entre ellos",Has finalizado el primer bloque,"Vous allez maintenant faire les blocs de test

Il y a 4 blocs, avec une pause entre les deux",Vous avez terminé le premier bloc,l,1,0.673681399999623,None,,,,,,,,,,,,,,,,,0,0,0,0,0,2,2,5,47.88786330000039,,,,,,0.8157146947662866,,,,,,,,,48.69008769999982,48.69622030000028,48.69622030000028,48.69622030000028,48.69622030000028,48.69622030000028,49.3731813000004,l,1,0.673681399999623,None,49.38691219999964,49.671915799999624,,,,,,,Example,1,English,Both hands,Yes,4 (increments of 90º),Palmar and Dorsal,4,0.3,2025-07-02_10h24.34.345,HLJT_local,2024.2.1,59.66291645453965,2025-07-02 10h25.15.071038 +0200,
English,,3,3,0,,,,,,,hljt_images/right_palmar.png,right,palmar,0,up,l,h,,,,,"Now you are going to do the test blocks

There are 4 blocks, with a break between them",You have finished the first block,"Ahora vas a realizar los bloques de prueba

Hay 4 bloques, con un descanso entre ellos",Has finalizado el primer bloque,"Vous allez maintenant faire les blocs de test

Il y a 4 blocs, avec une pause entre les deux",Vous avez terminé le premier bloc,l,1,0.58646090000002,None,,,,,,,,,,,,,,,,,0,0,0,0,0,3,3,0,49.68795649999993,,,,,,0.8086705280638596,,,,,,,,,50.48872870000014,50.49652030000016,50.49652030000016,50.49652030000016,50.49652030000016,50.49652030000016,51.090338599999995,l,1,0.58646090000002,None,51.10393579999982,51.3888337999997,,,,,,,Example,1,English,Both hands,Yes,4 (increments of 90º),Palmar and Dorsal,4,0.3,2025-07-02_10h24.34.345,HLJT_local,2024.2.1,59.66291645453965,2025-07-02 10h25.15.071038 +0200,
English,,4,4,0,,,,,,,hljt_images/left_palmar.png,left,palmar,90,medial,s,g,,,,,"Now you are going to do the test blocks

There are 4 blocks, with a break between them",You have finished the first block,"Ahora vas a realizar los bloques de prueba

Hay 4 bloques, con un descanso entre ellos",Has finalizado el primer bloque,"Vous allez maintenant faire les blocs de test

Il y a 4 blocs, avec une pause entre les deux",Vous avez terminé le premier bloc,s,1,0.7874301000001651,None,,,,,,,,,,,,,,,,,0,0,0,0,0,4,4,9,51.40396429999964,,,,,,0.7265775245565298,,,,,,,,,52.121255799999744,52.12667369999963,52.12667369999963,52.12667369999963,52.12667369999963,52.12667369999963,52.92333820000022,s,1,0.7874301000001651,None,52.93942049999987,53.222623399999975,,,,,,,Example,1,English,Both hands,Yes,4 (increments of 90º),Palmar and Dorsal,4,0.3,2025-07-02_10h24.34.345,HLJT_local,2024.2.1,59.66291645453965,2025-07-02 10h25.15.071038 +0200,
English,,5,5,0,,,,,,,hljt_images/left_dorsal.png,left,dorsal,270,medial,s,g,,,,,"Now you are going to do the test blocks

There are 4 blocks, with a break between them",You have finished the first block,"Ahora vas a realizar los bloques de prueba

Hay 4 bloques, con un descanso entre ellos",Has finalizado el primer bloque,"Vous allez maintenant faire les blocs de test

Il y a 4 blocs, avec une pause entre les deux",Vous avez terminé le premier bloc,s,1,0.6888763999995717,None,,,,,,,,,,,,,,,,,0,0,0,0,0,5,5,15,53.23722379999981,,,,,,0.8278048308687109,,,,,,,,,54.05839780000042,54.065210099999604,54.065210099999604,54.065210099999604,54.065210099999604,54.065210099999604,54.757351799999924,s,1,0.6888763999995717,None,54.77423949999957,55.05573910000021,,,,,,,Example,1,English,Both hands,Yes,4 (increments of 90º),Palmar and Dorsal,4,0.3,2025-07-02_10h24.34.345,HLJT_local,2024.2.1,59.66291645453965,2025-07-02 10h25.15.071038 +0200,
English,,6,6,0,,,,,,,hljt_images/right_palmar.png,right,palmar,270,medial,l,h,,,,,"Now you are going to do the test blocks

There are 4 blocks, with a break between them",You have finished the first block,"Ahora vas a realizar los bloques de prueba

Hay 4 bloques, con un descanso entre ellos",Has finalizado el primer bloque,"Vous allez maintenant faire les blocs de test

Il y a 4 blocs, avec une pause entre les deux",Vous avez terminé le premier bloc,l,1,0.4923706999998103,None,,,,,,,,,,,,,,,,,0,0,0,0,0,6,6,3,55.07081610000023,,,,,,0.9849970003459665,,,,,,,,,56.054876899999726,56.06132489999982,56.06132489999982,56.06132489999982,56.06132489999982,56.06132489999982,56.5703297,l,1,0.4923706999998103,None,56.578860100000384,56.85595699999976,,,,,,,Example,1,English,Both hands,Yes,4 (increments of 90º),Palmar and Dorsal,4,0.3,2025-07-02_10h24.34.345,HLJT_local,2024.2.1,59.66291645453965,2025-07-02 10h25.15.071038 +0200,
English,,7,7,0,,,,,,,hljt_images/left_dorsal.png,left,dorsal,0,up,s,g,,,,,"Now you are going to do the test blocks

There are 4 blocks, with a break between them",You have finished the first block,"Ahora vas a realizar los bloques de prueba

Hay 4 bloques, con un descanso entre ellos",Has finalizado el primer bloque,"Vous allez maintenant faire les blocs de test

Il y a 4 blocs, avec une pause entre les deux",Vous avez terminé le premier bloc,s,1,0.47902870000052644,None,,,,,,,,,,,,,,,,,0,0,0,0,0,7,7,12,56.87078709999969,,,,,,0.842603495430609,,,,,,,,,57.70830980000028,57.715162800000144,57.715162800000144,57.715162800000144,57.715162800000144,57.715162800000144,58.206505400000424,s,1,0.47902870000052644,None,58.22523040000033,58.505473000000165,,,,,,,Example,1,English,Both hands,Yes,4 (increments of 90º),Palmar and Dorsal,4,0.3,2025-07-02_10h24.34.345,HLJT_local,2024.2.1,59.66291645453965,2025-07-02 10h25.15.071038 +0200,
English,,8,8,0,,,,,,,hljt_images/left_palmar.png,left,palmar,270,lateral,s,g,,,,,"Now you are going to do the test blocks

There are 4 blocks, with a break between them",You have finished the first block,"Ahora vas a realizar los bloques de prueba

Hay 4 bloques, con un descanso entre ellos",Has finalizado el primer bloque,"Vous allez maintenant faire les blocs de test

Il y a 4 blocs, avec une pause entre les deux",Vous avez terminé le premier bloc,l,0,0.5729388999998264,None,,,,,,,,,,,,,,,,,0,0,0,0,0,8,8,11,58.52075390000027,,,,,,0.7568509324662704,,,,,,,,,59.27199980000023,59.27839810000023,59.27839810000023,59.27839810000023,59.27839810000023,59.27839810000023,59.85772100000031,l,0,0.5729388999998264,None,59.87663200000043,60.1555513000003,,,,,,,Example,1,English,Both hands,Yes,4 (increments of 90º),Palmar and Dorsal,4,0.3,2025-07-02_10h24.34.345,HLJT_local,2024.2.1,59.66291645453965,2025-07-02 10h25.15.071038 +0200,
English,,9,9,0,,,,,,,hljt_images/right_dorsal.png,right,dorsal,0,up,l,h,,,,,"Now you are going to do the test blocks

There are 4 blocks, with a break between them",You have finished the first block,"Ahora vas a realizar los bloques de prueba

Hay 4 bloques, con un descanso entre ellos",Has finalizado el primer bloque,"Vous allez maintenant faire les blocs de test

Il y a 4 blocs, avec une pause entre les deux",Vous avez terminé le premier bloc,l,1,0.46248219999961293,None,,,,,,,,,,,,,,,,,0,0,0,0,0,9,9,4,60.170765500000016,,,,,,0.8704156087350046,,,,,,,,,61.03722509999989,61.04382069999974,61.04382069999974,61.04382069999974,61.04382069999974,61.04382069999974,61.52351920000001,l,1,0.46248219999961293,None,61.53830990000006,61.80946539999968,,,,,,,Example,1,English,Both hands,Yes,4 (increments of 90º),Palmar and Dorsal,4,0.3,2025-07-02_10h24.34.345,HLJT_local,2024.2.1,59.66291645453965,2025-07-02 10h25.15.071038 +0200,
English,,10,10,0,,,,,,,hljt_images/left_palmar.png,left,palmar,180,down,s,g,,,,,"Now you are going to do the test blocks

There are 4 blocks, with a break between them",You have finished the first block,"Ahora vas a realizar los bloques de prueba

Hay 4 bloques, con un descanso entre ellos",Has finalizado el primer bloque,"Vous allez maintenant faire les blocs de test

Il y a 4 blocs, avec une pause entre les deux",Vous avez terminé le premier bloc,s,1,0.7774436999998215,None,,,,,,,,,,,,,,,,,0,0,0,0,0,10,10,10,61.82394589999967,,,,,,0.7092968072437392,,,,,,,,,62.522545300000274,62.528983700000026,62.528983700000026,62.528983700000026,62.528983700000026,62.528983700000026,63.32075580000037,s,1,0.7774436999998215,None,63.34084849999999,63.62096819999988,,,,,,,Example,1,English,Both hands,Yes,4 (increments of 90º),Palmar and Dorsal,4,0.3,2025-07-02_10h24.34.345,HLJT_local,2024.2.1,59.66291645453965,2025-07-02 10h25.15.071038 +0200,
English,,11,11,0,,,,,,,hljt_images/left_dorsal.png,left,dorsal,90,lateral,s,g,,,,,"Now you are going to do the test blocks

There are 4 blocks, with a break between them",You have finished the first block,"Ahora vas a realizar los bloques de prueba

Hay 4 bloques, con un descanso entre ellos",Has finalizado el primer bloque,"Vous allez maintenant faire les blocs de test

Il y a 4 blocs, avec une pause entre les deux",Vous avez terminé le premier bloc,s,1,0.6869399000006524,None,,,,,,,,,,,,,,,,,0,0,0,0,0,11,11,13,63.63631540000006,,,,,,0.820294203554736,,,,,,,,,64.45335049999994,64.45947520000027,64.45947520000027,64.45947520000027,64.45947520000027,64.45947520000027,65.15481540000019,s,1,0.6869399000006524,None,65.17231189999984,65.43873160000021,,,,,,,Example,1,English,Both hands,Yes,4 (increments of 90º),Palmar and Dorsal,4,0.3,2025-07-02_10h24.34.345,HLJT_local,2024.2.1,59.66291645453965,2025-07-02 10h25.15.071038 +0200,
English,,12,12,0,,,,,,,hljt_images/right_dorsal.png,right,dorsal,180,down,l,h,,,,,"Now you are going to do the test blocks

There are 4 blocks, with a break between them",You have finished the first block,"Ahora vas a realizar los bloques de prueba

Hay 4 bloques, con un descanso entre ellos",Has finalizado el primer bloque,"Vous allez maintenant faire les blocs de test

Il y a 4 blocs, avec une pause entre les deux",Vous avez terminé le premier bloc,s,0,0.9232501000005868,None,,,,,,,,,,,,,,,,,0,0,0,0,0,12,12,6,65.45368429999962,,,,,,0.8803334205703943,,,,,,,,,66.31115620000037,66.31922269999995,66.31922269999995,66.31922269999995,66.31922269999995,66.31922269999995,67.2563541999998,s,0,0.9232501000005868,None,67.27092809999976,67.5529974000001,,,,,,,Example,1,English,Both hands,Yes,4 (increments of 90º),Palmar and Dorsal,4,0.3,2025-07-02_10h24.34.345,HLJT_local,2024.2.1,59.66291645453965,2025-07-02 10h25.15.071038 +0200,
English,,13,13,0,,,,,,,hljt_images/right_palmar.png,right,palmar,90,lateral,l,h,,,,,"Now you are going to do the test blocks

There are 4 blocks, with a break between them",You have finished the first block,"Ahora vas a realizar los bloques de prueba

Hay 4 bloques, con un descanso entre ellos",Has finalizado el primer bloque,"Vous allez maintenant faire les blocs de test

Il y a 4 blocs, avec une pause entre les deux",Vous avez terminé le premier bloc,l,1,0.8497897999995985,None,,,,,,,,,,,,,,,,,0,0,0,0,0,13,13,1,67.5692095000004,,,,,,0.9611427233122825,,,,,,,,,68.52155140000013,68.52834179999991,68.52834179999991,68.52834179999991,68.52834179999991,68.52834179999991,69.38971990000027,l,1,0.8497897999995985,None,69.40615009999965,69.68850010000006,,,,,,,Example,1,English,Both hands,Yes,4 (increments of 90º),Palmar and Dorsal,4,0.3,2025-07-02_10h24.34.345,HLJT_local,2024.2.1,59.66291645453965,2025-07-02 10h25.15.071038 +0200,
English,,14,14,0,,,,,,,hljt_images/right_palmar.png,right,palmar,180,down,l,h,,,,,"Now you are going to do the test blocks

There are 4 blocks, with a break between them",You have finished the first block,"Ahora vas a realizar los bloques de prueba

Hay 4 bloques, con un descanso entre ellos",Has finalizado el primer bloque,"Vous allez maintenant faire les blocs de test

Il y a 4 blocs, avec une pause entre les deux",Vous avez terminé le premier bloc,l,1,0.5715219000003344,None,,,,,,,,,,,,,,,,,0,0,0,0,0,14,14,2,69.7037491000001,,,,,,0.7921782505353082,,,,,,,,,70.48969190000025,70.49511230000007,70.49511230000007,70.49511230000007,70.49511230000007,70.49511230000007,71.0708123000004,l,1,0.5715219000003344,None,71.08398899999975,71.37008760000026,,,,,,,Example,1,English,Both hands,Yes,4 (increments of 90º),Palmar and Dorsal,4,0.3,2025-07-02_10h24.34.345,HLJT_local,2024.2.1,59.66291645453965,2025-07-02 10h25.15.071038 +0200,
English,,15,15,0,,,,,,,hljt_images/right_dorsal.png,right,dorsal,270,lateral,l,h,,,,,"Now you are going to do the test blocks

There are 4 blocks, with a break between them",You have finished the first block,"Ahora vas a realizar los bloques de prueba

Hay 4 bloques, con un descanso entre ellos",Has finalizado el primer bloque,"Vous allez maintenant faire les blocs de test

Il y a 4 blocs, avec une pause entre les deux",Vous avez terminé le premier bloc,l,1,0.7017261999999391,None,,,,,,,,,,,,,,,,,0,0,0,0,0,15,15,7,71.3862949000004,,,,,,0.703981811532286,,,,,,,,,72.08590800000002,72.09290039999996,72.09290039999996,72.09290039999996,72.09290039999996,72.09290039999996,72.80460549999952,l,1,0.7017261999999391,None,72.81930899999952,73.10311530000035,,,,,,,Example,1,English,Both hands,Yes,4 (increments of 90º),Palmar and Dorsal,4,0.3,2025-07-02_10h24.34.345,HLJT_local,2024.2.1,59.66291645453965,2025-07-02 10h25.15.071038 +0200,
English,,0,0,0,,,,,,,hljt_images/left_dorsal.png,left,dorsal,180,down,s,g,,,,,"Now you are going to start the second block

Remember that your goal is to answer as QUICKLY AND ACCURATELY as possible",You have finished the second block,"Ahora vas a empezar el segundo bloque

Recuerda que tu objetivo es contestar tan PRECISA Y RÁPIDAMENTE como puedas",Has finalizado el segundo bloque,"Vous allez maintenant commencer le deuxième bloc

N'oubliez pas que votre objectif est de répondre le PLUS PRÉCISÉMENT ET LE PLUS RAPIDEMENT possible.",Vous avez terminé le deuxième bloc,l,0,0.5941022000006342,None,,,,,,,,,,,,,,,,,0,1,1,1,0,0,0,14,86.98596550000002,,,,,,0.8898131231882014,,,,,,,78.53527440000016,83.97250410000015,87.87531349999972,87.88128010000037,87.88128010000037,87.88128010000037,87.88128010000037,87.88128010000037,88.48929239999961,l,0,0.5941022000006342,None,88.50681350000013,88.78660669999954,73.10964129999957,78.52283230000012,,,,,Example,1,English,Both hands,Yes,4 (increments of 90º),Palmar and Dorsal,4,0.3,2025-07-02_10h24.34.345,HLJT_local,2024.2.1,59.66291645453965,2025-07-02 10h25.15.071038 +0200,
English,,1,1,0,,,,,,,hljt_images/left_dorsal.png,left,dorsal,0,up,s,g,,,,,"Now you are going to start the second block

Remember that your goal is to answer as QUICKLY AND ACCURATELY as possible",You have finished the second block,"Ahora vas a empezar el segundo bloque

Recuerda que tu objetivo es contestar tan PRECISA Y RÁPIDAMENTE como puedas",Has finalizado el segundo bloque,"Vous allez maintenant commencer le deuxième bloc

N'oubliez pas que votre objectif est de répondre le PLUS PRÉCISÉMENT ET LE PLUS RAPIDEMENT possible.",Vous avez terminé le deuxième bloc,s,1,0.649845699999787,None,,,,,,,,,,,,,,,,,0,1,1,1,0,1,1,12,88.80658810000023,,,,,,0.8291255291522959,,,,,,,,,89.61960739999995,89.62491829999999,89.62491829999999,89.62491829999999,89.62491829999999,89.62491829999999,90.28846900000008,s,1,0.649845699999787,None,90.3061531000003,90.58780879999995,,,,,,,Example,1,English,Both hands,Yes,4 (increments of 90º),Palmar and Dorsal,4,0.3,2025-07-02_10h24.34.345,HLJT_local,2024.2.1,59.66291645453965,2025-07-02 10h25.15.071038 +0200,
English,,2,2,0,,,,,,,hljt_images/right_dorsal.png,right,dorsal,180,down,l,h,,,,,"Now you are going to start the second block

Remember that your goal is to answer as QUICKLY AND ACCURATELY as possible",You have finished the second block,"Ahora vas a empezar el segundo bloque

Recuerda que tu objetivo es contestar tan PRECISA Y RÁPIDAMENTE como puedas",Has finalizado el segundo bloque,"Vous allez maintenant commencer le deuxième bloc

N'oubliez pas que votre objectif est de répondre le PLUS PRÉCISÉMENT ET LE PLUS RAPIDEMENT possible.",Vous avez terminé le deuxième bloc,l,1,1.3124918999992587,None,,,,,,,,,,,,,,,,,0,1,1,1,0,2,2,6,90.60289699999976,,,,,,0.6637153512633915,,,,,,,,,91.25311280000005,91.25886730000002,91.25886730000002,91.25886730000002,91.25886730000002,91.25886730000002,92.58855210000002,l,1,1.3124918999992587,None,92.60874950000016,92.88721840000017,,,,,,,Example,1,English,Both hands,Yes,4 (increments of 90º),Palmar and Dorsal,4,0.3,2025-07-02_10h24.34.345,HLJT_local,2024.2.1,59.66291645453965,2025-07-02 10h25.15.071038 +0200,
English,,3,3,0,,,,,,,hljt_images/left_palmar.png,left,palmar,270,lateral,s,g,,,,,"Now you are going to start the second block

Remember that your goal is to answer as QUICKLY AND ACCURATELY as possible",You have finished the second block,"Ahora vas a empezar el segundo bloque

Recuerda que tu objetivo es contestar tan PRECISA Y RÁPIDAMENTE como puedas",Has finalizado el segundo bloque,"Vous allez maintenant commencer le deuxième bloc

N'oubliez pas que votre objectif est de répondre le PLUS PRÉCISÉMENT ET LE PLUS RAPIDEMENT possible.",Vous avez terminé le deuxième bloc,s,1,0.8070387999996456,None,,,,,,,,,,,,,,,,,0,1,1,1,0,3,3,11,92.9066912999997,,,,,,0.7821951902294624,,,,,,,,,93.68626820000009,93.69223340000008,93.69223340000008,93.69223340000008,93.69223340000008,93.69223340000008,94.50551650000034,s,1,0.8070387999996456,None,94.53605470000002,94.8046588999996,,,,,,,Example,1,English,Both hands,Yes,4 (increments of 90º),Palmar and Dorsal,4,0.3,2025-07-02_10h24.34.345,HLJT_local,2024.2.1,59.66291645453965,2025-07-02 10h25.15.071038 +0200,
English,,4,4,0,,,,,,,hljt_images/left_dorsal.png,left,dorsal,90,lateral,s,g,,,,,"Now you are going to start the second block

Remember that your goal is to answer as QUICKLY AND ACCURATELY as possible",You have finished the second block,"Ahora vas a empezar el segundo bloque

Recuerda que tu objetivo es contestar tan PRECISA Y RÁPIDAMENTE como puedas",Has finalizado el segundo bloque,"Vous allez maintenant commencer le deuxième bloc

N'oubliez pas que votre objectif est de répondre le PLUS PRÉCISÉMENT ET LE PLUS RAPIDEMENT possible.",Vous avez terminé le deuxième bloc,s,1,0.73994969999967,None,,,,,,,,,,,,,,,,,0,1,1,1,0,4,4,13,94.81989199999953,,,,,,0.8193174715618756,,,,,,,,,95.64427100000012,95.65389649999997,95.65389649999997,95.65389649999997,95.65389649999997,95.65389649999997,96.40552969999953,s,1,0.73994969999967,None,96.42747440000039,96.70229949999975,,,,,,,Example,1,English,Both hands,Yes,4 (increments of 90º),Palmar and Dorsal,4,0.3,2025-07-02_10h24.34.345,HLJT_local,2024.2.1,59.66291645453965,2025-07-02 10h25.15.071038 +0200,
English,,5,5,0,,,,,,,hljt_images/right_dorsal.png,right,dorsal,270,lateral,l,h,,,,,"Now you are going to start the second block

Remember that your goal is to answer as QUICKLY AND ACCURATELY as possible",You have finished the second block,"Ahora vas a empezar el segundo bloque

Recuerda que tu objetivo es contestar tan PRECISA Y RÁPIDAMENTE como puedas",Has finalizado el segundo bloque,"Vous allez maintenant commencer le deuxième bloc

N'oubliez pas que votre objectif est de répondre le PLUS PRÉCISÉMENT ET LE PLUS RAPIDEMENT possible.",Vous avez terminé le deuxième bloc,l,1,0.6375066000000515,None,,,,,,,,,,,,,,,,,0,1,1,1,0,5,5,7,96.7185227,,,,,,0.7758177606851199,,,,,,,,,97.48774950000006,97.4936144000003,97.4936144000003,97.4936144000003,97.4936144000003,97.4936144000003,98.13938309999958,l,1,0.6375066000000515,None,98.15661389999968,98.43758640000033,,,,,,,Example,1,English,Both hands,Yes,4 (increments of 90º),Palmar and Dorsal,4,0.3,2025-07-02_10h24.34.345,HLJT_local,2024.2.1,59.66291645453965,2025-07-02 10h25.15.071038 +0200,
English,,6,6,0,,,,,,,hljt_images/right_dorsal.png,right,dorsal,90,medial,l,h,,,,,"Now you are going to start the second block

Remember that your goal is to answer as QUICKLY AND ACCURATELY as possible",You have finished the second block,"Ahora vas a empezar el segundo bloque

Recuerda que tu objetivo es contestar tan PRECISA Y RÁPIDAMENTE como puedas",Has finalizado el segundo bloque,"Vous allez maintenant commencer le deuxième bloc

N'oubliez pas que votre objectif est de répondre le PLUS PRÉCISÉMENT ET LE PLUS RAPIDEMENT possible.",Vous avez terminé le deuxième bloc,l,1,0.588203500000418,None,,,,,,,,,,,,,,,,,0,1,1,1,0,6,6,5,98.45319010000003,,,,,,0.9810123454789761,,,,,,,,,99.41814890000023,99.42373159999988,99.42373159999988,99.42373159999988,99.42373159999988,99.42373159999988,100.02175939999961,l,1,0.588203500000418,None,100.03796349999993,100.32076789999974,,,,,,,Example,1,English,Both hands,Yes,4 (increments of 90º),Palmar and Dorsal,4,0.3,2025-07-02_10h24.34.345,HLJT_local,2024.2.1,59.66291645453965,2025-07-02 10h25.15.071038 +0200,
English,,7,7,0,,,,,,,hljt_images/left_palmar.png,left,palmar,180,down,s,g,,,,,"Now you are going to start the second block

Remember that your goal is to answer as QUICKLY AND ACCURATELY as possible",You have finished the second block,"Ahora vas a empezar el segundo bloque

Recuerda que tu objetivo es contestar tan PRECISA Y RÁPIDAMENTE como puedas",Has finalizado el segundo bloque,"Vous allez maintenant commencer le deuxième bloc

N'oubliez pas que votre objectif est de répondre le PLUS PRÉCISÉMENT ET LE PLUS RAPIDEMENT possible.",Vous avez terminé le deuxième bloc,s,1,1.2541314999998576,None,,,,,,,,,,,,,,,,,0,1,1,1,0,7,7,10,100.33644519999962,,,,,,0.9322147312516044,,,,,,,,,101.25517690000015,101.26117439999962,101.26117439999962,101.26117439999962,101.26117439999962,101.26117439999962,102.52226869999959,s,1,1.2541314999998576,None,102.54062590000012,102.82108640000024,,,,,,,Example,1,English,Both hands,Yes,4 (increments of 90º),Palmar and Dorsal,4,0.3,2025-07-02_10h24.34.345,HLJT_local,2024.2.1,59.66291645453965,2025-07-02 10h25.15.071038 +0200,
English,,8,8,0,,,,,,,hljt_images/right_dorsal.png,right,dorsal,0,up,l,h,,,,,"Now you are going to start the second block

Remember that your goal is to answer as QUICKLY AND ACCURATELY as possible",You have finished the second block,"Ahora vas a empezar el segundo bloque

Recuerda que tu objetivo es contestar tan PRECISA Y RÁPIDAMENTE como puedas",Has finalizado el segundo bloque,"Vous allez maintenant commencer le deuxième bloc

N'oubliez pas que votre objectif est de répondre le PLUS PRÉCISÉMENT ET LE PLUS RAPIDEMENT possible.",Vous avez terminé le deuxième bloc,l,1,0.5314952999997331,None,,,,,,,,,,,,,,,,,0,1,1,1,0,8,8,4,102.83655110000018,,,,,,0.785554078971303,,,,,,,,,103.63307270000041,103.63929999999982,103.63929999999982,103.63929999999982,103.63929999999982,103.63929999999982,104.18787749999956,l,1,0.5314952999997331,None,104.2039192000002,104.4857578000001,,,,,,,Example,1,English,Both hands,Yes,4 (increments of 90º),Palmar and Dorsal,4,0.3,2025-07-02_10h24.34.345,HLJT_local,2024.2.1,59.66291645453965,2025-07-02 10h25.15.071038 +0200,
English,,9,9,0,,,,,,,hljt_images/right_palmar.png,right,palmar,90,lateral,l,h,,,,,"Now you are going to start the second block

Remember that your goal is to answer as QUICKLY AND ACCURATELY as possible",You have finished the second block,"Ahora vas a empezar el segundo bloque

Recuerda que tu objetivo es contestar tan PRECISA Y RÁPIDAMENTE como puedas",Has finalizado el segundo bloque,"Vous allez maintenant commencer le deuxième bloc

N'oubliez pas que votre objectif est de répondre le PLUS PRÉCISÉMENT ET LE PLUS RAPIDEMENT possible.",Vous avez terminé le deuxième bloc,l,1,0.6500131000002511,None,,,,,,,,,,,,,,,,,0,1,1,1,0,9,9,1,104.5022657999998,,,,,,0.8443129321961161,,,,,,,,,105.33756679999988,105.34468149999975,105.34468149999975,105.34468149999975,105.34468149999975,105.34468149999975,106.00496209999983,l,1,0.6500131000002511,None,106.0205847999996,106.30415129999983,,,,,,,Example,1,English,Both hands,Yes,4 (increments of 90º),Palmar and Dorsal,4,0.3,2025-07-02_10h24.34.345,HLJT_local,2024.2.1,59.66291645453965,2025-07-02 10h25.15.071038 +0200,
English,,10,10,0,,,,,,,hljt_images/right_palmar.png,right,palmar,0,up,l,h,,,,,"Now you are going to start the second block

Remember that your goal is to answer as QUICKLY AND ACCURATELY as possible",You have finished the second block,"Ahora vas a empezar el segundo bloque

Recuerda que tu objetivo es contestar tan PRECISA Y RÁPIDAMENTE como puedas",Has finalizado el segundo bloque,"Vous allez maintenant commencer le deuxième bloc

N'oubliez pas que votre objectif est de répondre le PLUS PRÉCISÉMENT ET LE PLUS RAPIDEMENT possible.",Vous avez terminé le deuxième bloc,l,1,0.5353694999994332,None,,,,,,,,,,,,,,,,,0,1,1,1,0,10,10,0,106.31945919999998,,,,,,0.7187043989641646,,,,,,,,,107.03725140000006,107.04347729999972,107.04347729999972,107.04347729999972,107.04347729999972,107.04347729999972,107.58836410000004,l,1,0.5353694999994332,None,107.6047037999997,107.88726609999958,,,,,,,Example,1,English,Both hands,Yes,4 (increments of 90º),Palmar and Dorsal,4,0.3,2025-07-02_10h24.34.345,HLJT_local,2024.2.1,59.66291645453965,2025-07-02 10h25.15.071038 +0200,
English,,11,11,0,,,,,,,hljt_images/right_palmar.png,right,palmar,180,down,l,h,,,,,"Now you are going to start the second block

Remember that your goal is to answer as QUICKLY AND ACCURATELY as possible",You have finished the second block,"Ahora vas a empezar el segundo bloque

Recuerda que tu objetivo es contestar tan PRECISA Y RÁPIDAMENTE como puedas",Has finalizado el segundo bloque,"Vous allez maintenant commencer le deuxième bloc

N'oubliez pas que votre objectif est de répondre le PLUS PRÉCISÉMENT ET LE PLUS RAPIDEMENT possible.",Vous avez terminé le deuxième bloc,l,1,0.5435477999999421,None,,,,,,,,,,,,,,,,,0,1,1,1,0,11,11,2,107.9024687000001,,,,,,0.8562745994699306,,,,,,,,,108.75826440000037,108.7626922999998,108.7626922999998,108.7626922999998,108.7626922999998,108.7626922999998,109.31961339999998,l,1,0.5435477999999421,None,109.3312206999999,109.6047179999996,,,,,,,Example,1,English,Both hands,Yes,4 (increments of 90º),Palmar and Dorsal,4,0.3,2025-07-02_10h24.34.345,HLJT_local,2024.2.1,59.66291645453965,2025-07-02 10h25.15.071038 +0200,
English,,12,12,0,,,,,,,hljt_images/left_palmar.png,left,palmar,0,up,s,g,,,,,"Now you are going to start the second block

Remember that your goal is to answer as QUICKLY AND ACCURATELY as possible",You have finished the second block,"Ahora vas a empezar el segundo bloque

Recuerda que tu objetivo es contestar tan PRECISA Y RÁPIDAMENTE como puedas",Has finalizado el segundo bloque,"Vous allez maintenant commencer le deuxième bloc

N'oubliez pas que votre objectif est de répondre le PLUS PRÉCISÉMENT ET LE PLUS RAPIDEMENT possible.",Vous avez terminé le deuxième bloc,s,1,0.6227374000000054,None,,,,,,,,,,,,,,,,,0,1,1,1,0,12,12,8,109.61933399999998,,,,,,0.8396990218431514,,,,,,,,,110.45395759999974,110.45927980000033,110.45927980000033,110.45927980000033,110.45927980000033,110.45927980000033,111.08873500000027,s,1,0.6227374000000054,None,111.10650139999962,111.38738139999987,,,,,,,Example,1,English,Both hands,Yes,4 (increments of 90º),Palmar and Dorsal,4,0.3,2025-07-02_10h24.34.345,HLJT_local,2024.2.1,59.66291645453965,2025-07-02 10h25.15.071038 +0200,
English,,13,13,0,,,,,,,hljt_images/right_palmar.png,right,palmar,270,medial,l,h,,,,,"Now you are going to start the second block

Remember that your goal is to answer as QUICKLY AND ACCURATELY as possible",You have finished the second block,"Ahora vas a empezar el segundo bloque

Recuerda que tu objetivo es contestar tan PRECISA Y RÁPIDAMENTE como puedas",Has finalizado el segundo bloque,"Vous allez maintenant commencer le deuxième bloc

N'oubliez pas que votre objectif est de répondre le PLUS PRÉCISÉMENT ET LE PLUS RAPIDEMENT possible.",Vous avez terminé le deuxième bloc,s,0,0.7779263000002175,None,,,,,,,,,,,,,,,,,0,1,1,1,0,13,13,3,111.40221779999956,,,,,,0.8352392381643318,,,,,,,,,112.23488240000006,112.24050379999971,112.24050379999971,112.24050379999971,112.24050379999971,112.24050379999971,113.02138920000016,s,0,0.7779263000002175,None,113.03770890000033,113.32083090000015,,,,,,,Example,1,English,Both hands,Yes,4 (increments of 90º),Palmar and Dorsal,4,0.3,2025-07-02_10h24.34.345,HLJT_local,2024.2.1,59.66291645453965,2025-07-02 10h25.15.071038 +0200,
English,,14,14,0,,,,,,,hljt_images/left_palmar.png,left,palmar,90,medial,s,g,,,,,"Now you are going to start the second block

Remember that your goal is to answer as QUICKLY AND ACCURATELY as possible",You have finished the second block,"Ahora vas a empezar el segundo bloque

Recuerda que tu objetivo es contestar tan PRECISA Y RÁPIDAMENTE como puedas",Has finalizado el segundo bloque,"Vous allez maintenant commencer le deuxième bloc

N'oubliez pas que votre objectif est de répondre le PLUS PRÉCISÉMENT ET LE PLUS RAPIDEMENT possible.",Vous avez terminé le deuxième bloc,s,1,0.6890352999998868,None,,,,,,,,,,,,,,,,,0,1,1,1,0,14,14,9,113.33508400000028,,,,,,0.8435554345449285,,,,,,,,,114.17161860000033,114.17690140000013,114.17690140000013,114.17690140000013,114.17690140000013,114.17690140000013,114.87567789999957,s,1,0.6890352999998868,None,114.89449929999955,115.17031709999992,,,,,,,Example,1,English,Both hands,Yes,4 (increments of 90º),Palmar and Dorsal,4,0.3,2025-07-02_10h24.34.345,HLJT_local,2024.2.1,59.66291645453965,2025-07-02 10h25.15.071038 +0200,
English,,15,15,0,,,,,,,hljt_images/left_dorsal.png,left,dorsal,270,medial,s,g,,,,,"Now you are going to start the second block

Remember that your goal is to answer as QUICKLY AND ACCURATELY as possible",You have finished the second block,"Ahora vas a empezar el segundo bloque

Recuerda que tu objetivo es contestar tan PRECISA Y RÁPIDAMENTE como puedas",Has finalizado el segundo bloque,"Vous allez maintenant commencer le deuxième bloc

N'oubliez pas que votre objectif est de répondre le PLUS PRÉCISÉMENT ET LE PLUS RAPIDEMENT possible.",Vous avez terminé le deuxième bloc,s,1,0.9707825000004959,None,,,,,,,,,,,,,,,,,0,1,1,1,0,15,15,15,115.18618409999999,,,,,,0.7786228227646474,,,,,,,,,115.95262889999958,115.95907999999963,115.95907999999963,115.95907999999963,115.95907999999963,115.95907999999963,116.93787940000038,s,1,0.9707825000004959,None,116.95321679999961,117.23671240000021,,,,,,,Example,1,English,Both hands,Yes,4 (increments of 90º),Palmar and Dorsal,4,0.3,2025-07-02_10h24.34.345,HLJT_local,2024.2.1,59.66291645453965,2025-07-02 10h25.15.071038 +0200,
English,,0,0,0,,,,,,,hljt_images/left_palmar.png,left,palmar,0,up,s,g,,,,,"Now you are going to start the third block

Remember that your goal is to answer as QUICKLY AND ACCURATELY as possible",You have finished the third block,"Ahora vas a empezar el tercer bloque

Recuerda que tu objetivo es contestar tan PRECISA Y RÁPIDAMENTE como puedas",Has finalizado el tercer bloque,"Vous  allez maintenant commencer le troisième bloc

N'oubliez pas que votre objectif est de répondre le PLUS PRÉCISÉMENT ET LE PLUS RAPIDEMENT possible.",Vous avez terminé le troisième bloc,s,1,0.7386032000003979,None,,,,,,,,,,,,,,,,,0,2,2,2,0,0,0,8,131.2351478999999,,,,,,0.9575277050822224,,,,,,,122.88106700000026,128.22237649999988,132.18594699999994,132.19212510000034,132.19212510000034,132.19212510000034,132.19212510000034,132.19212510000034,132.93581929999982,s,1,0.7386032000003979,None,132.95195160000003,133.2349446999997,117.24499120000019,122.87188109999988,,,,,Example,1,English,Both hands,Yes,4 (increments of 90º),Palmar and Dorsal,4,0.3,2025-07-02_10h24.34.345,HLJT_local,2024.2.1,59.66291645453965,2025-07-02 10h25.15.071038 +0200,
English,,1,1,0,,,,,,,hljt_images/left_dorsal.png,left,dorsal,90,lateral,s,g,,,,,"Now you are going to start the third block

Remember that your goal is to answer as QUICKLY AND ACCURATELY as possible",You have finished the third block,"Ahora vas a empezar el tercer bloque

Recuerda que tu objetivo es contestar tan PRECISA Y RÁPIDAMENTE como puedas",Has finalizado el tercer bloque,"Vous  allez maintenant commencer le troisième bloc

N'oubliez pas que votre objectif est de répondre le PLUS PRÉCISÉMENT ET LE PLUS RAPIDEMENT possible.",Vous avez terminé le troisième bloc,s,1,0.5941177000004245,None,,,,,,,,,,,,,,,,,0,2,2,2,0,1,1,13,133.25119540000014,,,,,,0.7829697599582577,,,,,,,,,134.0174152999998,134.02387530000033,134.02387530000033,134.02387530000033,134.02387530000033,134.02387530000033,134.6211929000001,s,1,0.5941177000004245,None,134.63825019999967,134.9197065999997,,,,,,,Example,1,English,Both hands,Yes,4 (increments of 90º),Palmar and Dorsal,4,0.3,2025-07-02_10h24.34.345,HLJT_local,2024.2.1,59.66291645453965,2025-07-02 10h25.15.071038 +0200,
English,,2,2,0,,,,,,,hljt_images/left_palmar.png,left,palmar,270,lateral,s,g,,,,,"Now you are going to start the third block

Remember that your goal is to answer as QUICKLY AND ACCURATELY as possible",You have finished the third block,"Ahora vas a empezar el tercer bloque

Recuerda que tu objetivo es contestar tan PRECISA Y RÁPIDAMENTE como puedas",Has finalizado el tercer bloque,"Vous  allez maintenant commencer le troisième bloc

N'oubliez pas que votre objectif est de répondre le PLUS PRÉCISÉMENT ET LE PLUS RAPIDEMENT possible.",Vous avez terminé le troisième bloc,s,1,0.892180300000291,None,,,,,,,,,,,,,,,,,0,2,2,2,0,2,2,11,134.93525409999984,,,,,,0.9122846853879534,,,,,,,,,135.83095270000013,135.83771960000013,135.83771960000013,135.83771960000013,135.83771960000013,135.83771960000013,136.73677109999971,s,1,0.892180300000291,None,136.75482379999994,137.0366041999996,,,,,,,Example,1,English,Both hands,Yes,4 (increments of 90º),Palmar and Dorsal,4,0.3,2025-07-02_10h24.34.345,HLJT_local,2024.2.1,59.66291645453965,2025-07-02 10h25.15.071038 +0200,
English,,3,3,0,,,,,,,hljt_images/right_dorsal.png,right,dorsal,90,medial,l,h,,,,,"Now you are going to start the third block

Remember that your goal is to answer as QUICKLY AND ACCURATELY as possible",You have finished the third block,"Ahora vas a empezar el tercer bloque

Recuerda que tu objetivo es contestar tan PRECISA Y RÁPIDAMENTE como puedas",Has finalizado el tercer bloque,"Vous  allez maintenant commencer le troisième bloc

N'oubliez pas que votre objectif est de répondre le PLUS PRÉCISÉMENT ET LE PLUS RAPIDEMENT possible.",Vous avez terminé le troisième bloc,l,1,0.6936083999999028,None,,,,,,,,,,,,,,,,,0,2,2,2,0,3,3,5,137.0517034000004,,,,,,0.703732007668807,,,,,,,,,137.75065050000012,137.75680920000013,137.75680920000013,137.75680920000013,137.75680920000013,137.75680920000013,138.4546022000004,l,1,0.6936083999999028,None,138.47196350000013,138.75396180000007,,,,,,,Example,1,English,Both hands,Yes,4 (increments of 90º),Palmar and Dorsal,4,0.3,2025-07-02_10h24.34.345,HLJT_local,2024.2.1,59.66291645453965,2025-07-02 10h25.15.071038 +0200,
English,,4,4,0,,,,,,,hljt_images/right_dorsal.png,right,dorsal,180,down,l,h,,,,,"Now you are going to start the third block

Remember that your goal is to answer as QUICKLY AND ACCURATELY as possible",You have finished the third block,"Ahora vas a empezar el tercer bloque

Recuerda que tu objetivo es contestar tan PRECISA Y RÁPIDAMENTE como puedas",Has finalizado el tercer bloque,"Vous  allez maintenant commencer le troisième bloc

N'oubliez pas que votre objectif est de répondre le PLUS PRÉCISÉMENT ET LE PLUS RAPIDEMENT possible.",Vous avez terminé le troisième bloc,s,0,0.845533699999578,None,,,,,,,,,,,,,,,,,0,2,2,2,0,4,4,6,138.7672564000004,,,,,,0.6614704083861689,,,,,,,,,139.41633319999983,139.42168709999987,139.42168709999987,139.42168709999987,139.42168709999987,139.42168709999987,140.27112190000025,s,0,0.845533699999578,None,140.28732320000017,140.57042019999972,,,,,,,Example,1,English,Both hands,Yes,4 (increments of 90º),Palmar and Dorsal,4,0.3,2025-07-02_10h24.34.345,HLJT_local,2024.2.1,59.66291645453965,2025-07-02 10h25.15.071038 +0200,
English,,5,5,0,,,,,,,hljt_images/left_palmar.png,left,palmar,180,down,s,g,,,,,"Now you are going to start the third block

Remember that your goal is to answer as QUICKLY AND ACCURATELY as possible",You have finished the third block,"Ahora vas a empezar el tercer bloque

Recuerda que tu objetivo es contestar tan PRECISA Y RÁPIDAMENTE como puedas",Has finalizado el tercer bloque,"Vous  allez maintenant commencer le troisième bloc

N'oubliez pas que votre objectif est de répondre le PLUS PRÉCISÉMENT ET LE PLUS RAPIDEMENT possible.",Vous avez terminé le troisième bloc,s,1,1.190100199999506,None,,,,,,,,,,,,,,,,,0,2,2,2,0,5,5,10,140.58526489999986,,,,,,0.8329801925833911,,,,,,,,,141.4210178000003,141.42742429999998,141.42742429999998,141.42742429999998,141.42742429999998,141.42742429999998,142.62102380000033,s,1,1.190100199999506,None,142.63653729999987,142.91944439999952,,,,,,,Example,1,English,Both hands,Yes,4 (increments of 90º),Palmar and Dorsal,4,0.3,2025-07-02_10h24.34.345,HLJT_local,2024.2.1,59.66291645453965,2025-07-02 10h25.15.071038 +0200,
English,,6,6,0,,,,,,,hljt_images/left_dorsal.png,left,dorsal,270,medial,s,g,,,,,"Now you are going to start the third block

Remember that your goal is to answer as QUICKLY AND ACCURATELY as possible",You have finished the third block,"Ahora vas a empezar el tercer bloque

Recuerda que tu objetivo es contestar tan PRECISA Y RÁPIDAMENTE como puedas",Has finalizado el tercer bloque,"Vous  allez maintenant commencer le troisième bloc

N'oubliez pas que votre objectif est de répondre le PLUS PRÉCISÉMENT ET LE PLUS RAPIDEMENT possible.",Vous avez terminé le troisième bloc,s,1,0.6824793999994654,None,,,,,,,,,,,,,,,,,0,2,2,2,0,6,6,15,142.93512350000037,,,,,,0.7817698883524032,,,,,,,,,143.70460420000018,143.7112030999997,143.7112030999997,143.7112030999997,143.7112030999997,143.7112030999997,144.40348259999973,s,1,0.6824793999994654,None,144.41956469999968,144.70289429999957,,,,,,,Example,1,English,Both hands,Yes,4 (increments of 90º),Palmar and Dorsal,4,0.3,2025-07-02_10h24.34.345,HLJT_local,2024.2.1,59.66291645453965,2025-07-02 10h25.15.071038 +0200,
English,,7,7,0,,,,,,,hljt_images/right_palmar.png,right,palmar,180,down,l,h,,,,,"Now you are going to start the third block

Remember that your goal is to answer as QUICKLY AND ACCURATELY as possible",You have finished the third block,"Ahora vas a empezar el tercer bloque

Recuerda que tu objetivo es contestar tan PRECISA Y RÁPIDAMENTE como puedas",Has finalizado el tercer bloque,"Vous  allez maintenant commencer le troisième bloc

N'oubliez pas que votre objectif est de répondre le PLUS PRÉCISÉMENT ET LE PLUS RAPIDEMENT possible.",Vous avez terminé le troisième bloc,l,1,0.6279524999999921,None,,,,,,,,,,,,,,,,,0,2,2,2,0,7,7,2,144.7185688999998,,,,,,0.6250749940366237,,,,,,,,,145.33521889999975,145.34220619999996,145.34220619999996,145.34220619999996,145.34220619999996,145.34220619999996,145.9869877000001,l,1,0.6279524999999921,None,146.0033695000002,146.2845115,,,,,,,Example,1,English,Both hands,Yes,4 (increments of 90º),Palmar and Dorsal,4,0.3,2025-07-02_10h24.34.345,HLJT_local,2024.2.1,59.66291645453965,2025-07-02 10h25.15.071038 +0200,
English,,8,8,0,,,,,,,hljt_images/left_palmar.png,left,palmar,90,medial,s,g,,,,,"Now you are going to start the third block

Remember that your goal is to answer as QUICKLY AND ACCURATELY as possible",You have finished the third block,"Ahora vas a empezar el tercer bloque

Recuerda que tu objetivo es contestar tan PRECISA Y RÁPIDAMENTE como puedas",Has finalizado el tercer bloque,"Vous  allez maintenant commencer le troisième bloc

N'oubliez pas que votre objectif est de répondre le PLUS PRÉCISÉMENT ET LE PLUS RAPIDEMENT possible.",Vous avez terminé le troisième bloc,l,0,0.5158574000006411,None,,,,,,,,,,,,,,,,,0,2,2,2,0,8,8,9,146.30154829999992,,,,,,0.6951571062745514,,,,,,,,,146.98477249999996,146.9902605999996,146.9902605999996,146.9902605999996,146.9902605999996,146.9902605999996,147.5207677999997,l,0,0.5158574000006411,None,147.53835049999998,147.81943169999977,,,,,,,Example,1,English,Both hands,Yes,4 (increments of 90º),Palmar and Dorsal,4,0.3,2025-07-02_10h24.34.345,HLJT_local,2024.2.1,59.66291645453965,2025-07-02 10h25.15.071038 +0200,
English,,9,9,0,,,,,,,hljt_images/right_palmar.png,right,palmar,90,lateral,l,h,,,,,"Now you are going to start the third block

Remember that your goal is to answer as QUICKLY AND ACCURATELY as possible",You have finished the third block,"Ahora vas a empezar el tercer bloque

Recuerda que tu objetivo es contestar tan PRECISA Y RÁPIDAMENTE como puedas",Has finalizado el tercer bloque,"Vous  allez maintenant commencer le troisième bloc

N'oubliez pas que votre objectif est de répondre le PLUS PRÉCISÉMENT ET LE PLUS RAPIDEMENT possible.",Vous avez terminé le troisième bloc,l,1,0.6725162000002456,None,,,,,,,,,,,,,,,,,0,2,2,2,0,9,9,1,147.83494169999994,,,,,,0.8119374328767964,,,,,,,,,148.63577460000033,148.6422607000004,148.6422607000004,148.6422607000004,148.6422607000004,148.6422607000004,149.32095630000003,l,1,0.6725162000002456,None,149.33780209999986,149.61967339999956,,,,,,,Example,1,English,Both hands,Yes,4 (increments of 90º),Palmar and Dorsal,4,0.3,2025-07-02_10h24.34.345,HLJT_local,2024.2.1,59.66291645453965,2025-07-02 10h25.15.071038 +0200,
English,,10,10,0,,,,,,,hljt_images/left_dorsal.png,left,dorsal,0,up,s,g,,,,,"Now you are going to start the third block

Remember that your goal is to answer as QUICKLY AND ACCURATELY as possible",You have finished the third block,"Ahora vas a empezar el tercer bloque

Recuerda que tu objetivo es contestar tan PRECISA Y RÁPIDAMENTE como puedas",Has finalizado el tercer bloque,"Vous  allez maintenant commencer le troisième bloc

N'oubliez pas que votre objectif est de répondre le PLUS PRÉCISÉMENT ET LE PLUS RAPIDEMENT possible.",Vous avez terminé le troisième bloc,s,1,0.5788222999999562,None,,,,,,,,,,,,,,,,,0,2,2,2,0,10,10,12,149.63508309999997,,,,,,0.9353438233881319,,,,,,,,,150.56904250000025,150.57527550000032,150.57527550000032,150.57527550000032,150.57527550000032,150.57527550000032,151.16820559999996,s,1,0.5788222999999562,None,151.18244830000003,151.4527822,,,,,,,Example,1,English,Both hands,Yes,4 (increments of 90º),Palmar and Dorsal,4,0.3,2025-07-02_10h24.34.345,HLJT_local,2024.2.1,59.66291645453965,2025-07-02 10h25.15.071038 +0200,
English,,11,11,0,,,,,,,hljt_images/right_palmar.png,right,palmar,270,medial,l,h,,,,,"Now you are going to start the third block

Remember that your goal is to answer as QUICKLY AND ACCURATELY as possible",You have finished the third block,"Ahora vas a empezar el tercer bloque

Recuerda que tu objetivo es contestar tan PRECISA Y RÁPIDAMENTE como puedas",Has finalizado el tercer bloque,"Vous  allez maintenant commencer le troisième bloc

N'oubliez pas que votre objectif est de répondre le PLUS PRÉCISÉMENT ET LE PLUS RAPIDEMENT possible.",Vous avez terminé le troisième bloc,l,1,0.621642599999177,None,,,,,,,,,,,,,,,,,0,2,2,2,0,11,11,3,151.46706770000037,,,,,,0.8464409370088943,,,,,,,,,152.30267619999995,152.30954060000022,152.30954060000022,152.30954060000022,152.30954060000022,152.30954060000022,152.9373413000003,l,1,0.621642599999177,None,152.95329930000025,153.23623429999952,,,,,,,Example,1,English,Both hands,Yes,4 (increments of 90º),Palmar and Dorsal,4,0.3,2025-07-02_10h24.34.345,HLJT_local,2024.2.1,59.66291645453965,2025-07-02 10h25.15.071038 +0200,
English,,12,12,0,,,,,,,hljt_images/right_dorsal.png,right,dorsal,270,lateral,l,h,,,,,"Now you are going to start the third block

Remember that your goal is to answer as QUICKLY AND ACCURATELY as possible",You have finished the third block,"Ahora vas a empezar el tercer bloque

Recuerda que tu objetivo es contestar tan PRECISA Y RÁPIDAMENTE como puedas",Has finalizado el tercer bloque,"Vous  allez maintenant commencer le troisième bloc

N'oubliez pas que votre objectif est de répondre le PLUS PRÉCISÉMENT ET LE PLUS RAPIDEMENT possible.",Vous avez terminé le troisième bloc,l,1,0.5812654000001203,None,,,,,,,,,,,,,,,,,0,2,2,2,0,12,12,7,153.2501271000001,,,,,,0.6638988336571552,,,,,,,,,153.90226069999972,153.90865320000012,153.90865320000012,153.90865320000012,153.90865320000012,153.90865320000012,154.50339619999977,l,1,0.5812654000001203,None,154.52026879999994,154.80268199999955,,,,,,,Example,1,English,Both hands,Yes,4 (increments of 90º),Palmar and Dorsal,4,0.3,2025-07-02_10h24.34.345,HLJT_local,2024.2.1,59.66291645453965,2025-07-02 10h25.15.071038 +0200,
English,,13,13,0,,,,,,,hljt_images/left_dorsal.png,left,dorsal,180,down,s,g,,,,,"Now you are going to start the third block

Remember that your goal is to answer as QUICKLY AND ACCURATELY as possible",You have finished the third block,"Ahora vas a empezar el tercer bloque

Recuerda que tu objetivo es contestar tan PRECISA Y RÁPIDAMENTE como puedas",Has finalizado el tercer bloque,"Vous  allez maintenant commencer le troisième bloc

N'oubliez pas que votre objectif est de répondre le PLUS PRÉCISÉMENT ET LE PLUS RAPIDEMENT possible.",Vous avez terminé le troisième bloc,s,1,1.7966616000003341,None,,,,,,,,,,,,,,,,,0,2,2,2,0,13,13,14,154.81813450000027,,,,,,0.722238774399842,,,,,,,,,155.53641799999968,155.5418655000003,155.5418655000003,155.5418655000003,155.5418655000003,155.5418655000003,157.35291419999976,s,1,1.7966616000003341,None,157.36887079999997,157.65241809999952,,,,,,,Example,1,English,Both hands,Yes,4 (increments of 90º),Palmar and Dorsal,4,0.3,2025-07-02_10h24.34.345,HLJT_local,2024.2.1,59.66291645453965,2025-07-02 10h25.15.071038 +0200,
English,,14,14,0,,,,,,,hljt_images/right_palmar.png,right,palmar,0,up,l,h,,,,,"Now you are going to start the third block

Remember that your goal is to answer as QUICKLY AND ACCURATELY as possible",You have finished the third block,"Ahora vas a empezar el tercer bloque

Recuerda que tu objetivo es contestar tan PRECISA Y RÁPIDAMENTE como puedas",Has finalizado el tercer bloque,"Vous  allez maintenant commencer le troisième bloc

N'oubliez pas que votre objectif est de répondre le PLUS PRÉCISÉMENT ET LE PLUS RAPIDEMENT possible.",Vous avez terminé le troisième bloc,l,1,0.5781432000003406,None,,,,,,,,,,,,,,,,,0,2,2,2,0,14,14,0,157.66813939999975,,,,,,0.894297222853588,,,,,,,,,158.55305820000012,158.55974069999957,158.55974069999957,158.55974069999957,158.55974069999957,158.55974069999957,159.15325519999988,l,1,0.5781432000003406,None,159.1681778000002,159.45253260000027,,,,,,,Example,1,English,Both hands,Yes,4 (increments of 90º),Palmar and Dorsal,4,0.3,2025-07-02_10h24.34.345,HLJT_local,2024.2.1,59.66291645453965,2025-07-02 10h25.15.071038 +0200,
English,,15,15,0,,,,,,,hljt_images/right_dorsal.png,right,dorsal,0,up,l,h,,,,,"Now you are going to start the third block

Remember that your goal is to answer as QUICKLY AND ACCURATELY as possible",You have finished the third block,"Ahora vas a empezar el tercer bloque

Recuerda que tu objetivo es contestar tan PRECISA Y RÁPIDAMENTE como puedas",Has finalizado el tercer bloque,"Vous  allez maintenant commencer le troisième bloc

N'oubliez pas que votre objectif est de répondre le PLUS PRÉCISÉMENT ET LE PLUS RAPIDEMENT possible.",Vous avez terminé le troisième bloc,l,1,0.4327958000003491,None,,,,,,,,,,,,,,,,,0,2,2,2,0,15,15,4,159.46749340000042,,,,,,0.7772062253748419,,,,,,,,,160.2351478999999,160.24168329999975,160.24168329999975,160.24168329999975,160.24168329999975,160.24168329999975,160.6848412999998,l,1,0.4327958000003491,None,160.6973281999999,160.9689070000004,,,,,,,Example,1,English,Both hands,Yes,4 (increments of 90º),Palmar and Dorsal,4,0.3,2025-07-02_10h24.34.345,HLJT_local,2024.2.1,59.66291645453965,2025-07-02 10h25.15.071038 +0200,
English,,0,0,0,,,,,,,hljt_images/left_palmar.png,left,palmar,270,lateral,s,g,,,,,"Now you are going to start the last block

Remember that your goal is to answer as QUICKLY AND ACCURATELY as possible",You have finished the last block,"Ahora vas a empezar el último bloque

Recuerda que tu objetivo es contestar tan PRECISA Y RÁPIDAMENTE como puedas",Has finalizado el último bloque,"Vous allez maintenant commencer le dernier bloc

N'oubliez pas que votre objectif est de répondre lePLUS PRÉCISÉMENT ET LE PLUS RAPIDEMENT possible.",Vous avez terminé le dernier bloc,s,1,0.6305634000000282,None,,,,,,,,,,,,,,,,,0,3,3,3,0,0,0,11,174.81673709999995,,,,,,0.7952917139482328,,,,,,,166.4293932999999,171.80330529999992,175.61135120000017,175.61888160000035,175.61888160000035,175.61888160000035,175.61888160000035,175.61888160000035,176.2529324999996,s,1,0.6305634000000282,None,176.27658020000035,176.53875489999973,160.97730310000043,166.41942010000002,,,,,Example,1,English,Both hands,Yes,4 (increments of 90º),Palmar and Dorsal,4,0.3,2025-07-02_10h24.34.345,HLJT_local,2024.2.1,59.66291645453965,2025-07-02 10h25.15.071038 +0200,
English,,1,1,0,,,,,,,hljt_images/left_palmar.png,left,palmar,0,up,s,g,,,,,"Now you are going to start the last block

Remember that your goal is to answer as QUICKLY AND ACCURATELY as possible",You have finished the last block,"Ahora vas a empezar el último bloque

Recuerda que tu objetivo es contestar tan PRECISA Y RÁPIDAMENTE como puedas",Has finalizado el último bloque,"Vous allez maintenant commencer le dernier bloc

N'oubliez pas que votre objectif est de répondre lePLUS PRÉCISÉMENT ET LE PLUS RAPIDEMENT possible.",Vous avez terminé le dernier bloc,l,0,0.4221685000002253,None,,,,,,,,,,,,,,,,,0,3,3,3,0,1,1,8,176.55051379999986,,,,,,0.8445437428466622,,,,,,,,,177.38918709999962,177.39538400000038,177.39538400000038,177.39538400000038,177.39538400000038,177.39538400000038,177.82001469999977,l,0,0.4221685000002253,None,177.8423917,178.11835520000022,,,,,,,Example,1,English,Both hands,Yes,4 (increments of 90º),Palmar and Dorsal,4,0.3,2025-07-02_10h24.34.345,HLJT_local,2024.2.1,59.66291645453965,2025-07-02 10h25.15.071038 +0200,
English,,2,2,0,,,,,,,hljt_images/right_palmar.png,right,palmar,270,medial,l,h,,,,,"Now you are going to start the last block

Remember that your goal is to answer as QUICKLY AND ACCURATELY as possible",You have finished the last block,"Ahora vas a empezar el último bloque

Recuerda que tu objetivo es contestar tan PRECISA Y RÁPIDAMENTE como puedas",Has finalizado el último bloque,"Vous allez maintenant commencer le dernier bloc

N'oubliez pas que votre objectif est de répondre lePLUS PRÉCISÉMENT ET LE PLUS RAPIDEMENT possible.",Vous avez terminé le dernier bloc,l,1,0.5798609000003125,None,,,,,,,,,,,,,,,,,0,3,3,3,0,2,2,3,178.13388630000009,,,,,,0.8130032103250343,,,,,,,,,178.9361601999999,178.94275029999972,178.94275029999972,178.94275029999972,178.94275029999972,178.94275029999972,179.53640519999954,l,1,0.5798609000003125,None,179.55688800000007,179.83547759999965,,,,,,,Example,1,English,Both hands,Yes,4 (increments of 90º),Palmar and Dorsal,4,0.3,2025-07-02_10h24.34.345,HLJT_local,2024.2.1,59.66291645453965,2025-07-02 10h25.15.071038 +0200,
English,,3,3,0,,,,,,,hljt_images/left_palmar.png,left,palmar,180,down,s,g,,,,,"Now you are going to start the last block

Remember that your goal is to answer as QUICKLY AND ACCURATELY as possible",You have finished the last block,"Ahora vas a empezar el último bloque

Recuerda que tu objetivo es contestar tan PRECISA Y RÁPIDAMENTE como puedas",Has finalizado el último bloque,"Vous allez maintenant commencer le dernier bloc

N'oubliez pas que votre objectif est de répondre lePLUS PRÉCISÉMENT ET LE PLUS RAPIDEMENT possible.",Vous avez terminé le dernier bloc,s,1,0.8178397000001496,None,,,,,,,,,,,,,,,,,0,3,3,3,0,3,3,10,179.8507929999996,,,,,,0.7699120134300979,,,,,,,,,180.62484630000017,180.63150380000025,180.63150380000025,180.63150380000025,180.63150380000025,180.63150380000025,181.45329669999956,s,1,0.8178397000001496,None,181.47592170000007,181.7514712000002,,,,,,,Example,1,English,Both hands,Yes,4 (increments of 90º),Palmar and Dorsal,4,0.3,2025-07-02_10h24.34.345,HLJT_local,2024.2.1,59.66291645453965,2025-07-02 10h25.15.071038 +0200,
English,,4,4,0,,,,,,,hljt_images/right_palmar.png,right,palmar,90,lateral,l,h,,,,,"Now you are going to start the last block

Remember that your goal is to answer as QUICKLY AND ACCURATELY as possible",You have finished the last block,"Ahora vas a empezar el último bloque

Recuerda que tu objetivo es contestar tan PRECISA Y RÁPIDAMENTE como puedas",Has finalizado el último bloque,"Vous allez maintenant commencer le dernier bloc

N'oubliez pas que votre objectif est de répondre lePLUS PRÉCISÉMENT ET LE PLUS RAPIDEMENT possible.",Vous avez terminé le dernier bloc,l,1,0.5693524999996953,None,,,,,,,,,,,,,,,,,0,3,3,3,0,4,4,1,181.76759740000034,,,,,,0.9959585238943955,,,,,,,,,182.75382139999965,182.7601168000001,182.7601168000001,182.7601168000001,182.7601168000001,182.7601168000001,183.33659979999993,l,1,0.5693524999996953,None,183.35439640000004,183.63568750000013,,,,,,,Example,1,English,Both hands,Yes,4 (increments of 90º),Palmar and Dorsal,4,0.3,2025-07-02_10h24.34.345,HLJT_local,2024.2.1,59.66291645453965,2025-07-02 10h25.15.071038 +0200,
English,,5,5,0,,,,,,,hljt_images/right_palmar.png,right,palmar,180,down,l,h,,,,,"Now you are going to start the last block

Remember that your goal is to answer as QUICKLY AND ACCURATELY as possible",You have finished the last block,"Ahora vas a empezar el último bloque

Recuerda que tu objetivo es contestar tan PRECISA Y RÁPIDAMENTE como puedas",Has finalizado el último bloque,"Vous allez maintenant commencer le dernier bloc

N'oubliez pas que votre objectif est de répondre lePLUS PRÉCISÉMENT ET LE PLUS RAPIDEMENT possible.",Vous avez terminé le dernier bloc,l,1,0.6901809000000867,None,,,,,,,,,,,,,,,,,0,3,3,3,0,5,5,2,183.65060189999986,,,,,,0.7642627094624169,,,,,,,,,184.4016541000001,184.4072898000004,184.4072898000004,184.4072898000004,184.4072898000004,184.4072898000004,185.10381990000042,l,1,0.6901809000000867,None,185.11894329999996,185.40248650000012,,,,,,,Example,1,English,Both hands,Yes,4 (increments of 90º),Palmar and Dorsal,4,0.3,2025-07-02_10h24.34.345,HLJT_local,2024.2.1,59.66291645453965,2025-07-02 10h25.15.071038 +0200,
English,,6,6,0,,,,,,,hljt_images/left_dorsal.png,left,dorsal,270,medial,s,g,,,,,"Now you are going to start the last block

Remember that your goal is to answer as QUICKLY AND ACCURATELY as possible",You have finished the last block,"Ahora vas a empezar el último bloque

Recuerda que tu objetivo es contestar tan PRECISA Y RÁPIDAMENTE como puedas",Has finalizado el último bloque,"Vous allez maintenant commencer le dernier bloc

N'oubliez pas que votre objectif est de répondre lePLUS PRÉCISÉMENT ET LE PLUS RAPIDEMENT possible.",Vous avez terminé le dernier bloc,s,1,0.5795928999996249,None,,,,,,,,,,,,,,,,,0,3,3,3,0,6,6,15,185.41597170000023,,,,,,0.9350940413602153,,,,,,,,,186.3516964999999,186.3580390999996,186.3580390999996,186.3580390999996,186.3580390999996,186.3580390999996,186.95242859999962,s,1,0.5795928999996249,None,186.96910649999973,187.25560020000012,,,,,,,Example,1,English,Both hands,Yes,4 (increments of 90º),Palmar and Dorsal,4,0.3,2025-07-02_10h24.34.345,HLJT_local,2024.2.1,59.66291645453965,2025-07-02 10h25.15.071038 +0200,
English,,7,7,0,,,,,,,hljt_images/right_dorsal.png,right,dorsal,180,down,l,h,,,,,"Now you are going to start the last block

Remember that your goal is to answer as QUICKLY AND ACCURATELY as possible",You have finished the last block,"Ahora vas a empezar el último bloque

Recuerda que tu objetivo es contestar tan PRECISA Y RÁPIDAMENTE como puedas",Has finalizado el último bloque,"Vous allez maintenant commencer le dernier bloc

N'oubliez pas que votre objectif est de répondre lePLUS PRÉCISÉMENT ET LE PLUS RAPIDEMENT possible.",Vous avez terminé le dernier bloc,s,0,1.2322816999994757,None,,,,,,,,,,,,,,,,,0,3,3,3,0,7,7,6,187.27017840000008,,,,,,0.6559922611447075,,,,,,,,,187.9170879000003,187.922681,187.922681,187.922681,187.922681,187.922681,189.16898010000023,s,0,1.2322816999994757,None,189.18446159999985,189.46824730000026,,,,,,,Example,1,English,Both hands,Yes,4 (increments of 90º),Palmar and Dorsal,4,0.3,2025-07-02_10h24.34.345,HLJT_local,2024.2.1,59.66291645453965,2025-07-02 10h25.15.071038 +0200,
English,,8,8,0,,,,,,,hljt_images/left_dorsal.png,left,dorsal,0,up,s,g,,,,,"Now you are going to start the last block

Remember that your goal is to answer as QUICKLY AND ACCURATELY as possible",You have finished the last block,"Ahora vas a empezar el último bloque

Recuerda que tu objetivo es contestar tan PRECISA Y RÁPIDAMENTE como puedas",Has finalizado el último bloque,"Vous allez maintenant commencer le dernier bloc

N'oubliez pas que votre objectif est de répondre lePLUS PRÉCISÉMENT ET LE PLUS RAPIDEMENT possible.",Vous avez terminé le dernier bloc,s,1,0.8054543999996895,None,,,,,,,,,,,,,,,,,0,3,3,3,0,8,8,12,189.48341249999976,,,,,,0.6828924329148156,,,,,,,,,190.1683310999997,190.17406599999958,190.17406599999958,190.17406599999958,190.17406599999958,190.17406599999958,190.98623870000029,s,1,0.8054543999996895,None,191.00060909999956,191.28431350000028,,,,,,,Example,1,English,Both hands,Yes,4 (increments of 90º),Palmar and Dorsal,4,0.3,2025-07-02_10h24.34.345,HLJT_local,2024.2.1,59.66291645453965,2025-07-02 10h25.15.071038 +0200,
English,,9,9,0,,,,,,,hljt_images/left_palmar.png,left,palmar,90,medial,s,g,,,,,"Now you are going to start the last block

Remember that your goal is to answer as QUICKLY AND ACCURATELY as possible",You have finished the last block,"Ahora vas a empezar el último bloque

Recuerda que tu objetivo es contestar tan PRECISA Y RÁPIDAMENTE como puedas",Has finalizado el último bloque,"Vous allez maintenant commencer le dernier bloc

N'oubliez pas que votre objectif est de répondre lePLUS PRÉCISÉMENT ET LE PLUS RAPIDEMENT possible.",Vous avez terminé le dernier bloc,s,1,0.7240742999993017,None,,,,,,,,,,,,,,,,,0,3,3,3,0,9,9,9,191.2994421000003,,,,,,0.804531323042472,,,,,,,,,192.10314050000034,192.10950609999963,192.10950609999963,192.10950609999963,192.10950609999963,192.10950609999963,192.8365372999997,s,1,0.7240742999993017,None,192.85261460000038,193.13530590000028,,,,,,,Example,1,English,Both hands,Yes,4 (increments of 90º),Palmar and Dorsal,4,0.3,2025-07-02_10h24.34.345,HLJT_local,2024.2.1,59.66291645453965,2025-07-02 10h25.15.071038 +0200,
English,,10,10,0,,,,,,,hljt_images/left_dorsal.png,left,dorsal,180,down,s,g,,,,,"Now you are going to start the last block

Remember that your goal is to answer as QUICKLY AND ACCURATELY as possible",You have finished the last block,"Ahora vas a empezar el último bloque

Recuerda que tu objetivo es contestar tan PRECISA Y RÁPIDAMENTE como puedas",Has finalizado el último bloque,"Vous allez maintenant commencer le dernier bloc

N'oubliez pas que votre objectif est de répondre lePLUS PRÉCISÉMENT ET LE PLUS RAPIDEMENT possible.",Vous avez terminé le dernier bloc,s,1,1.1198877999995602,None,,,,,,,,,,,,,,,,,0,3,3,3,0,10,10,14,193.1502018000001,,,,,,0.8751678191454675,,,,,,,,,194.01903700000003,194.02538819999972,194.02538819999972,194.02538819999972,194.02538819999972,194.02538819999972,195.1513461000004,s,1,1.1198877999995602,None,195.16733719999957,195.44927850000022,,,,,,,Example,1,English,Both hands,Yes,4 (increments of 90º),Palmar and Dorsal,4,0.3,2025-07-02_10h24.34.345,HLJT_local,2024.2.1,59.66291645453965,2025-07-02 10h25.15.071038 +0200,
English,,11,11,0,,,,,,,hljt_images/right_dorsal.png,right,dorsal,270,lateral,l,h,,,,,"Now you are going to start the last block

Remember that your goal is to answer as QUICKLY AND ACCURATELY as possible",You have finished the last block,"Ahora vas a empezar el último bloque

Recuerda que tu objetivo es contestar tan PRECISA Y RÁPIDAMENTE como puedas",Has finalizado el último bloque,"Vous allez maintenant commencer le dernier bloc

N'oubliez pas que votre objectif est de répondre lePLUS PRÉCISÉMENT ET LE PLUS RAPIDEMENT possible.",Vous avez terminé le dernier bloc,l,1,0.7091737999999168,None,,,,,,,,,,,,,,,,,0,3,3,3,0,11,11,7,195.46549969999978,,,,,,0.974979500480978,,,,,,,,,196.43205020000005,196.4377774000004,196.4377774000004,196.4377774000004,196.4377774000004,196.4377774000004,197.15258879999965,l,1,0.7091737999999168,None,197.16838300000018,197.4383981000001,,,,,,,Example,1,English,Both hands,Yes,4 (increments of 90º),Palmar and Dorsal,4,0.3,2025-07-02_10h24.34.345,HLJT_local,2024.2.1,59.66291645453965,2025-07-02 10h25.15.071038 +0200,
English,,12,12,0,,,,,,,hljt_images/right_dorsal.png,right,dorsal,0,up,l,h,,,,,"Now you are going to start the last block

Remember that your goal is to answer as QUICKLY AND ACCURATELY as possible",You have finished the last block,"Ahora vas a empezar el último bloque

Recuerda que tu objetivo es contestar tan PRECISA Y RÁPIDAMENTE como puedas",Has finalizado el último bloque,"Vous allez maintenant commencer le dernier bloc

N'oubliez pas que votre objectif est de répondre lePLUS PRÉCISÉMENT ET LE PLUS RAPIDEMENT possible.",Vous avez terminé le dernier bloc,l,1,0.5237053000000742,None,,,,,,,,,,,,,,,,,0,3,3,3,0,12,12,4,197.44997899999998,,,,,,0.8133267798216803,,,,,,,,,198.26517739999963,198.2706373000001,198.2706373000001,198.2706373000001,198.2706373000001,198.2706373000001,198.80283239999972,l,1,0.5237053000000742,None,198.81817870000032,199.10238819999995,,,,,,,Example,1,English,Both hands,Yes,4 (increments of 90º),Palmar and Dorsal,4,0.3,2025-07-02_10h24.34.345,HLJT_local,2024.2.1,59.66291645453965,2025-07-02 10h25.15.071038 +0200,
English,,13,13,0,,,,,,,hljt_images/left_dorsal.png,left,dorsal,90,lateral,s,g,,,,,"Now you are going to start the last block

Remember that your goal is to answer as QUICKLY AND ACCURATELY as possible",You have finished the last block,"Ahora vas a empezar el último bloque

Recuerda que tu objetivo es contestar tan PRECISA Y RÁPIDAMENTE como puedas",Has finalizado el último bloque,"Vous allez maintenant commencer le dernier bloc

N'oubliez pas que votre objectif est de répondre lePLUS PRÉCISÉMENT ET LE PLUS RAPIDEMENT possible.",Vous avez terminé le dernier bloc,s,1,0.6085471000005782,None,,,,,,,,,,,,,,,,,0,3,3,3,0,13,13,13,199.11671819999992,,,,,,0.6600621594147391,,,,,,,,,199.77066490000016,199.776973,199.776973,199.776973,199.776973,199.776973,200.40225230000033,s,1,0.6085471000005782,None,200.42082269999992,200.70148830000016,,,,,,,Example,1,English,Both hands,Yes,4 (increments of 90º),Palmar and Dorsal,4,0.3,2025-07-02_10h24.34.345,HLJT_local,2024.2.1,59.66291645453965,2025-07-02 10h25.15.071038 +0200,
English,,14,14,0,,,,,,,hljt_images/right_dorsal.png,right,dorsal,90,medial,l,h,,,,,"Now you are going to start the last block

Remember that your goal is to answer as QUICKLY AND ACCURATELY as possible",You have finished the last block,"Ahora vas a empezar el último bloque

Recuerda que tu objetivo es contestar tan PRECISA Y RÁPIDAMENTE como puedas",Has finalizado el último bloque,"Vous allez maintenant commencer le dernier bloc

N'oubliez pas que votre objectif est de répondre lePLUS PRÉCISÉMENT ET LE PLUS RAPIDEMENT possible.",Vous avez terminé le dernier bloc,l,1,0.5091676000001826,None,,,,,,,,,,,,,,,,,0,3,3,3,0,14,14,5,200.71661070000027,,,,,,0.8704762109883832,,,,,,,,,201.5836890999999,201.5892002999999,201.5892002999999,201.5892002999999,201.5892002999999,201.5892002999999,202.10345609999968,l,1,0.5091676000001826,None,202.11516680000022,202.40089460000036,,,,,,,Example,1,English,Both hands,Yes,4 (increments of 90º),Palmar and Dorsal,4,0.3,2025-07-02_10h24.34.345,HLJT_local,2024.2.1,59.66291645453965,2025-07-02 10h25.15.071038 +0200,
English,,15,15,0,,,,,,,hljt_images/right_palmar.png,right,palmar,0,up,l,h,,,,,"Now you are going to start the last block

Remember that your goal is to answer as QUICKLY AND ACCURATELY as possible",You have finished the last block,"Ahora vas a empezar el último bloque

Recuerda que tu objetivo es contestar tan PRECISA Y RÁPIDAMENTE como puedas",Has finalizado el último bloque,"Vous allez maintenant commencer le dernier bloc

N'oubliez pas que votre objectif est de répondre lePLUS PRÉCISÉMENT ET LE PLUS RAPIDEMENT possible.",Vous avez terminé le dernier bloc,l,1,0.7357987000004869,None,,,,,,,,,,,,,,,,,0,3,3,3,0,15,15,0,202.41682219999984,,,,,,0.8422440337357865,,,,,,,,,203.25152189999972,203.2583152999996,203.2583152999996,203.2583152999996,203.2583152999996,203.2583152999996,204.00222419999955,l,1,0.7357987000004869,None,204.01846569999998,204.30120950000037,,,,,,,Example,1,English,Both hands,Yes,4 (increments of 90º),Palmar and Dorsal,4,0.3,2025-07-02_10h24.34.345,HLJT_local,2024.2.1,59.66291645453965,2025-07-02 10h25.15.071038 +0200,
English,,,,,,,,,,,,,,,,,,,,,,,,,,,,,,,,,,,,,,,,,,,,,,,,,,,,,,,,,,,,,,,,,,,,,,,,,,,,,,,,,,,,204.3098798000001,209.66881889999968,209.66892350000035,209.64863970000079,209.68119519999982,212.66632759999993,Example,1,English,Both hands,Yes,4 (increments of 90º),Palmar and Dorsal,4,0.3,2025-07-02_10h24.34.345,HLJT_local,2024.2.1,59.66291645453965,2025-07-02 10h25.15.071038 +0200,
